Folder: GrainBound

Note: README.md
# GrainBound
Anna and I are working to create a Python application for GrainBound LLC and GrainBound LLC's clients.

File: GB2(2).emsa
#FORMAT      : EMSA/MAS Spectral Data File
#VERSION     : 1.0
#TITLE       : GB2(2)
#DATE        : 25-APR-2018
#TIME        : 12:43: 8
#OWNER       :
#NPOINTS     : 2048
#NCOLUMNS    : 1
#XUNITS      : keV
#YUNITS      : Intensity
#DATATYPE    : XY
#XPERCHAN    : 0.01
#OFFSET      : 0.000000000
#CHOFFSET    : 0.000000
#SIGNALTYPE  : EDS
#XLABEL      : X-Ray Energy
#YLABEL      : X-Ray Intensity
#BEAMKV   -kV: 200.0
#EMISSION -uA: 0.0000
#PROBECUR -nA: 0.3000
#BEAMDIAM -nm: 0.0
#MAGCAM      : 3000000.0
#OPERMODE    : IMAG
#XTILTSTGE-dg: 5.000
#YTILTSTGE-dg: 0.000
#XPOSITION   : -150.263
#YPOSITION   : -234.725
#ZPOSITION   : -8.055
#ELEVANGLE-dg: 19.12
#AZIMANGLE-dg: 90.00
#SOLIDANGL-sR: 0.7561
#LIVETIME  -s: 180.000
#REALTIME  -s: 195.342
#TPYWIND  -cm: 1.00E-06
#TAUWIND  -cm: 2.00E-06
#TDEADLYR -cm: 1.00E-06
#EDSDET      : SiUTW
#COMMENT     : The following parameters are defined by Thermo Fisher Scientific
##INSTRUMENT : NSS Microanalysis System
##DETNAME    : SDD Detector
##CONTAM     : 0.00E+00
##CONTAMTYPE : NONE
##WORKDIST   : 3.80
##STAGEROT   : 0.000
##SLIDEPOS   : 11.500
##CRYSTMATL  : Si-Drift
##CRYSTAREA  : 100.000
##CRYSTTHICK : 0.450
##WINTYPE    : PARYLENE
##CONTMATL   : SDD_LELMT
##WINDCOAT   : ALUMINUM
##WINDTHICK  : 0.020
##DEADTIME   : 15.342
##TIMECNSTNT : 6400
##EDSBOARDREV: 2
##ZEROWIDTH  : 36.000
##DETECTS    : 1181322
##CONVERTS   : 1065754
##STORES     : 1007885
##ESCPKSREM  : 1
##ZEROPKSREM : 0
##SUMPKSREM  : 1
##ZEROCUTOFF : 0.000
##DETSUBTYPE : 2
##EXPONENT   : 0.000
##LOWEVADJ   : 0.000
##BEAMX      : -1.000
##BEAMY      : -1.000
##CHARGE     : 0.00E+00
##QUANT_DATE : (null)
##QUANT_CHI  : 0.000
##FITTYPE    : 0
##MATRIXCORR : 0
##PEAKLAB    : 0.258000  C Ka  2
##PEAKLAB    : 0.523000  O Ka  2
##PEAKLAB    : 0.704000  Fe La1  2
##PEAKLAB    : 0.775000  Co La1  2
##PEAKLAB    : 1.110000  Ga La1  2
##PEAKLAB    : 1.487000  Al Ka  2
##PEAKLAB    : 2.289000  Mo La1  2
##PEAKLAB    : 2.410000  Mo Lb1  2
##PEAKLAB    : 6.391000  Fe Ka  2
##PEAKLAB    : 6.911000  Co Ka1  2
##PEAKLAB    : 9.226000  Ga Ka1  2
##PEAKLAB    : 17.426  Mo Ka1  2
##PEAKLAB    : 19.56  Mo Kb1  2
##PEAKLAB    : 1.254000  Mg Ka  2
##PEAKLAB    : 1.296000  Mg Kb  2
##PEAKLAB    : 1.553000  Al Kb  2
##PEAKLAB    : 1.740000  Si Ka  2
##PEAKLAB    : 1.829000  Si Kb  2
##PEAKLAB    : 0.091000  Si L2,3-M  2
##PEAKLAB    : 3.690000  Ca Ka  2
##PEAKLAB    : 4.012000  Ca Kb1  2
##PEAKLAB    : 0.302000  Ca Ll  2
##PEAKLAB    : 0.341000  Ca La1  2
##PEAKLAB    : 0.306000  Ca Ln  2
##PEAKLAB    : 0.344000  Ca Lb1  2
#SPECTRUM    :
0.0000, 31316.0,
0.0700,   309.0,
0.1400,   132.0,
0.2100,   274.0,
0.2800,   369.0,
0.3500,   344.0,
0.4200,   815.0,
0.4900, 22345.0,
0.5600,  9652.0,
0.6300,   242.0,
0.7000,   251.0,
0.7700,   213.0,
0.8400,   253.0,
0.9100,   261.0,
0.9800,   294.0,
1.0500,   299.0,
1.1200,   398.0,
1.1900,   351.0,
1.2600,   435.0,
1.3300,   582.0,
1.4000,  2235.0,
1.4700, 50724.0,
1.5400, 10768.0,
1.6100,   457.0,
1.6800,   147.0,
1.7500,   158.0,
1.8200,   141.0,
1.8900,   123.0,
1.9600,   169.0,
2.0300,   165.0,
2.1000,   136.0,
2.1700,   118.0,
2.2400,   233.0,
2.3100,   332.0,
2.3800,   241.0,
2.4500,   152.0,
2.5200,   124.0,
2.5900,   114.0,
2.6600,    93.0,
2.7300,    97.0,
2.8000,    87.0,
2.8700,   120.0,
2.9400,   124.0,
3.0100,   110.0,
3.0800,    76.0,
3.1500,    76.0,
3.2200,    82.0,
3.2900,    72.0,
3.3600,    78.0,
3.4300,    85.0,
3.5000,    74.0,
3.5700,    79.0,
3.6400,    78.0,
3.7100,    68.0,
3.7800,    62.0,
3.8500,    61.0,
3.9200,    54.0,
3.9900,    66.0,
4.0600,    77.0,
4.1300,    66.0,
4.2000,    68.0,
4.2700,    58.0,
4.3400,    52.0,
4.4100,    81.0,
4.4800,    63.0,
4.5500,    87.0,
4.6200,    54.0,
4.6900,    49.0,
4.7600,    60.0,
4.8300,    51.0,
4.9000,    51.0,
4.9700,    59.0,
5.0400,    53.0,
5.1100,    49.0,
5.1800,    49.0,
5.2500,    51.0,
5.3200,    51.0,
5.3900,    55.0,
5.4600,    51.0,
5.5300,    46.0,
5.6000,    49.0,
5.6700,    51.0,
5.7400,    50.0,
5.8100,    45.0,
5.8800,    49.0,
5.9500,    48.0,
6.0200,    41.0,
6.0900,    45.0,
6.1600,    39.0,
6.2300,    49.0,
6.3000,    62.0,
6.3700,   111.0,
6.4400,    75.0,
6.5100,    47.0,
6.5800,    53.0,
6.6500,    34.0,
6.7200,    42.0,
6.7900,    44.0,
6.8600,    91.0,
6.9300,   111.0,
7.0000,    53.0,
7.0700,    61.0,
7.1400,    30.0,
7.2100,    34.0,
7.2800,    37.0,
7.3500,    26.0,
7.4200,    30.0,
7.4900,    42.0,
7.5600,    34.0,
7.6300,    39.0,
7.7000,    25.0,
7.7700,    28.0,
7.8400,    30.0,
7.9100,    30.0,
7.9800,    35.0,
8.0500,    30.0,
8.1200,    45.0,
8.1900,    39.0,
8.2600,    23.0,
8.3300,    24.0,
8.4000,    43.0,
8.4700,    35.0,
8.5400,    30.0,
8.6100,    39.0,
8.6800,    23.0,
8.7500,    26.0,
8.8200,    36.0,
8.8900,    28.0,
8.9600,    35.0,
9.0300,    34.0,
9.1000,    24.0,
9.1700,    65.0,
9.2400,    59.0,
9.3100,    50.0,
9.3800,    32.0,
9.4500,    22.0,
9.5200,    23.0,
9.5900,    30.0,
9.6600,    45.0,
9.7300,    37.0,
9.8000,    37.0,
9.8700,    30.0,
9.9400,    26.0,
10.0100,    28.0,
10.0800,    28.0,
10.1500,    19.0,
10.2200,    34.0,
10.2900,    33.0,
10.3600,    33.0,
10.4300,    37.0,
10.5000,    31.0,
10.5700,    33.0,
10.6400,    32.0,
10.7100,    18.0,
10.7800,    21.0,
10.8500,    23.0,
10.9200,    27.0,
10.9900,    24.0,
11.0600,    24.0,
11.1300,    23.0,
11.2000,    26.0,
11.2700,    26.0,
11.3400,    34.0,
11.4100,    33.0,
11.4800,    36.0,
11.5500,    30.0,
11.6200,    34.0,
11.6900,    14.0,
11.7600,    13.0,
11.8300,    15.0,
11.9000,    21.0,
11.9700,    22.0,
12.0400,    19.0,
12.1100,    22.0,
12.1800,    20.0,
12.2500,    22.0,
12.3200,    24.0,
12.3900,    28.0,
12.4600,    20.0,
12.5300,    27.0,
12.6000,    34.0,
12.6700,    33.0,
12.7400,    29.0,
12.8100,    23.0,
12.8800,    17.0,
12.9500,    20.0,
13.0200,    24.0,
13.0900,    13.0,
13.1600,    14.0,
13.2300,    16.0,
13.3000,    14.0,
13.3700,    18.0,
13.4400,    19.0,
13.5100,    17.0,
13.5800,    16.0,
13.6500,     7.0,
13.7200,    13.0,
13.7900,    15.0,
13.8600,    10.0,
13.9300,    13.0,
14.0000,    24.0,
14.0700,    16.0,
14.1400,    16.0,
14.2100,    21.0,
14.2800,    15.0,
14.3500,    17.0,
14.4200,    17.0,
14.4900,    11.0,
14.5600,    17.0,
14.6300,    16.0,
14.7000,    20.0,
14.7700,    14.0,
14.8400,    13.0,
14.9100,    13.0,
14.9800,    14.0,
15.0500,     7.0,
15.1200,    11.0,
15.1900,    15.0,
15.2600,    11.0,
15.3300,    17.0,
15.4000,    15.0,
15.4700,     6.0,
15.5400,    14.0,
15.6100,    10.0,
15.6800,    16.0,
15.7500,    13.0,
15.8200,    14.0,
15.8900,     9.0,
15.9600,    14.0,
16.0300,    18.0,
16.1000,     5.0,
16.1700,     7.0,
16.2400,    10.0,
16.3100,    13.0,
16.3800,     8.0,
16.4500,     9.0,
16.5200,    12.0,
16.5900,    11.0,
16.6600,     9.0,
16.7300,    16.0,
16.8000,    15.0,
16.8700,    11.0,
16.9400,    12.0,
17.0100,    14.0,
17.0800,    10.0,
17.1500,    31.0,
17.2200,    69.0,
17.2900,   182.0,
17.3600,   301.0,
17.4300,   324.0,
17.5000,   258.0,
17.5700,   108.0,
17.6400,    33.0,
17.7100,    11.0,
17.7800,     8.0,
17.8500,    14.0,
17.9200,     5.0,
17.9900,     6.0,
18.0600,    10.0,
18.1300,    11.0,
18.2000,     6.0,
18.2700,     5.0,
18.3400,     7.0,
18.4100,     8.0,
18.4800,     5.0,
18.5500,     7.0,
18.6200,     6.0,
18.6900,    12.0,
18.7600,     7.0,
18.8300,     5.0,
18.9000,     8.0,
18.9700,     7.0,
19.0400,     6.0,
19.1100,     4.0,
19.1800,     9.0,
19.2500,     5.0,
19.3200,     7.0,
19.3900,    27.0,
19.4600,    26.0,
19.5300,    46.0,
19.6000,    46.0,
19.6700,    26.0,
19.7400,    19.0,
19.8100,     9.0,
19.8800,    17.0,
19.9500,    12.0,
20.0200,     7.0,
20.0900,     9.0,
20.1600,     7.0,
20.2300,     3.0,
20.3000,     6.0,
20.3700,     3.0,
20.4400,     0.0,
20.4700,     3.0,
#ENDOFDATA   :

File: GB2(3).emsa
#FORMAT      : EMSA/MAS Spectral Data File
#VERSION     : 1.0
#TITLE       : GB2(3)
#DATE        : 25-APR-2018
#TIME        : 12:46:32
#OWNER       :
#NPOINTS     : 2048
#NCOLUMNS    : 1
#XUNITS      : keV
#YUNITS      : Intensity
#DATATYPE    : XY
#XPERCHAN    : 0.01
#OFFSET      : 0.000000000
#CHOFFSET    : 0.000000
#SIGNALTYPE  : EDS
#XLABEL      : X-Ray Energy
#YLABEL      : X-Ray Intensity
#BEAMKV   -kV: 200.0
#EMISSION -uA: 0.0000
#PROBECUR -nA: 0.3000
#BEAMDIAM -nm: 0.0
#MAGCAM      : 3000000.0
#OPERMODE    : IMAG
#XTILTSTGE-dg: 5.000
#YTILTSTGE-dg: 0.000
#XPOSITION   : -150.263
#YPOSITION   : -234.725
#ZPOSITION   : -8.055
#ELEVANGLE-dg: 19.12
#AZIMANGLE-dg: 90.00
#SOLIDANGL-sR: 0.7561
#LIVETIME  -s: 180.000
#REALTIME  -s: 195.292
#TPYWIND  -cm: 1.00E-06
#TAUWIND  -cm: 2.00E-06
#TDEADLYR -cm: 1.00E-06
#EDSDET      : SiUTW
#COMMENT     : The following parameters are defined by Thermo Fisher Scientific
##INSTRUMENT : NSS Microanalysis System
##DETNAME    : SDD Detector
##CONTAM     : 0.00E+00
##CONTAMTYPE : NONE
##WORKDIST   : 3.80
##STAGEROT   : 0.000
##SLIDEPOS   : 11.500
##CRYSTMATL  : Si-Drift
##CRYSTAREA  : 100.000
##CRYSTTHICK : 0.450
##WINTYPE    : PARYLENE
##CONTMATL   : SDD_LELMT
##WINDCOAT   : ALUMINUM
##WINDTHICK  : 0.020
##DEADTIME   : 15.292
##TIMECNSTNT : 6400
##EDSBOARDREV: 2
##ZEROWIDTH  : 40.000
##DETECTS    : 1177849
##CONVERTS   : 1062053
##STORES     : 1004329
##ESCPKSREM  : 1
##ZEROPKSREM : 0
##SUMPKSREM  : 1
##ZEROCUTOFF : 0.000
##DETSUBTYPE : 2
##EXPONENT   : 0.000
##LOWEVADJ   : 0.000
##BEAMX      : -1.000
##BEAMY      : -1.000
##CHARGE     : 0.00E+00
##QUANT_DATE : (null)
##QUANT_CHI  : 0.000
##FITTYPE    : 0
##MATRIXCORR : 0
##PEAKLAB    : 0.245000  C Ka  2
##PEAKLAB    : 0.523000  O Ka  2
##PEAKLAB    : 0.704000  Fe La1  2
##PEAKLAB    : 0.775000  Co La1  2
##PEAKLAB    : 1.487000  Al Ka  2
##PEAKLAB    : 2.289000  Mo La1  2
##PEAKLAB    : 6.396000  Fe Ka  2
##PEAKLAB    : 6.926000  Co Ka1  2
##PEAKLAB    : 9.237000  Ga Ka1  2
##PEAKLAB    : 17.422  Mo Ka1  2
##PEAKLAB    : 19.578  Mo Kb1  2
##PEAKLAB    : 1.254000  Mg Ka  2
##PEAKLAB    : 1.296000  Mg Kb  2
##PEAKLAB    : 1.553000  Al Kb  2
##PEAKLAB    : 1.740000  Si Ka  2
##PEAKLAB    : 1.829000  Si Kb  2
##PEAKLAB    : 0.091000  Si L2,3-M  2
##PEAKLAB    : 3.690000  Ca Ka  2
##PEAKLAB    : 4.012000  Ca Kb1  2
##PEAKLAB    : 0.302000  Ca Ll  2
##PEAKLAB    : 0.341000  Ca La1  2
##PEAKLAB    : 0.306000  Ca Ln  2
##PEAKLAB    : 0.344000  Ca Lb1  2
#SPECTRUM    :
0.0000, 31095.0,
0.0700,   276.0,
0.1400,   155.0,
0.2100,   249.0,
0.2800,   324.0,
0.3500,   368.0,
0.4200,   867.0,
0.4900, 22203.0,
0.5600,  9789.0,
0.6300,   281.0,
0.7000,   247.0,
0.7700,   219.0,
0.8400,   245.0,
0.9100,   268.0,
0.9800,   256.0,
1.0500,   301.0,
1.1200,   377.0,
1.1900,   352.0,
1.2600,   432.0,
1.3300,   588.0,
1.4000,  2165.0,
1.4700, 50833.0,
1.5400, 10695.0,
1.6100,   437.0,
1.6800,   160.0,
1.7500,   164.0,
1.8200,   144.0,
1.8900,   115.0,
1.9600,   155.0,
2.0300,   166.0,
2.1000,   124.0,
2.1700,   108.0,
2.2400,   230.0,
2.3100,   328.0,
2.3800,   222.0,
2.4500,   172.0,
2.5200,   118.0,
2.5900,   110.0,
2.6600,    90.0,
2.7300,   117.0,
2.8000,   107.0,
2.8700,   120.0,
2.9400,   121.0,
3.0100,   125.0,
3.0800,    79.0,
3.1500,    84.0,
3.2200,    81.0,
3.2900,    92.0,
3.3600,    82.0,
3.4300,    68.0,
3.5000,    81.0,
3.5700,    55.0,
3.6400,    80.0,
3.7100,    95.0,
3.7800,    54.0,
3.8500,    63.0,
3.9200,    78.0,
3.9900,    77.0,
4.0600,    76.0,
4.1300,    50.0,
4.2000,    57.0,
4.2700,    66.0,
4.3400,    67.0,
4.4100,    53.0,
4.4800,    72.0,
4.5500,    63.0,
4.6200,    56.0,
4.6900,    64.0,
4.7600,    60.0,
4.8300,    53.0,
4.9000,    70.0,
4.9700,    48.0,
5.0400,    62.0,
5.1100,    37.0,
5.1800,    45.0,
5.2500,    62.0,
5.3200,    58.0,
5.3900,    52.0,
5.4600,    47.0,
5.5300,    42.0,
5.6000,    40.0,
5.6700,    51.0,
5.7400,    45.0,
5.8100,    46.0,
5.8800,    48.0,
5.9500,    44.0,
6.0200,    43.0,
6.0900,    40.0,
6.1600,    32.0,
6.2300,    49.0,
6.3000,    55.0,
6.3700,   112.0,
6.4400,    94.0,
6.5100,    52.0,
6.5800,    38.0,
6.6500,    40.0,
6.7200,    34.0,
6.7900,    59.0,
6.8600,    87.0,
6.9300,   124.0,
7.0000,    71.0,
7.0700,    58.0,
7.1400,    47.0,
7.2100,    39.0,
7.2800,    24.0,
7.3500,    37.0,
7.4200,    38.0,
7.4900,    29.0,
7.5600,    40.0,
7.6300,    36.0,
7.7000,    32.0,
7.7700,    27.0,
7.8400,    41.0,
7.9100,    38.0,
7.9800,    35.0,
8.0500,    52.0,
8.1200,    33.0,
8.1900,    33.0,
8.2600,    29.0,
8.3300,    38.0,
8.4000,    27.0,
8.4700,    47.0,
8.5400,    39.0,
8.6100,    29.0,
8.6800,    31.0,
8.7500,    30.0,
8.8200,    28.0,
8.8900,    21.0,
8.9600,    29.0,
9.0300,    32.0,
9.1000,    35.0,
9.1700,    39.0,
9.2400,    60.0,
9.3100,    39.0,
9.3800,    34.0,
9.4500,    30.0,
9.5200,    27.0,
9.5900,    32.0,
9.6600,    40.0,
9.7300,    46.0,
9.8000,    20.0,
9.8700,    20.0,
9.9400,    37.0,
10.0100,    23.0,
10.0800,    21.0,
10.1500,    36.0,
10.2200,    23.0,
10.2900,    31.0,
10.3600,    18.0,
10.4300,    30.0,
10.5000,    36.0,
10.5700,    36.0,
10.6400,    32.0,
10.7100,    27.0,
10.7800,    25.0,
10.8500,    20.0,
10.9200,    31.0,
10.9900,    18.0,
11.0600,    25.0,
11.1300,    25.0,
11.2000,    27.0,
11.2700,    35.0,
11.3400,    25.0,
11.4100,    26.0,
11.4800,    28.0,
11.5500,    35.0,
11.6200,    25.0,
11.6900,    22.0,
11.7600,    25.0,
11.8300,    22.0,
11.9000,    18.0,
11.9700,    28.0,
12.0400,    21.0,
12.1100,    23.0,
12.1800,    17.0,
12.2500,    18.0,
12.3200,    21.0,
12.3900,    21.0,
12.4600,    25.0,
12.5300,    29.0,
12.6000,    38.0,
12.6700,    29.0,
12.7400,    19.0,
12.8100,    17.0,
12.8800,    23.0,
12.9500,    19.0,
13.0200,    21.0,
13.0900,    17.0,
13.1600,    16.0,
13.2300,    15.0,
13.3000,    15.0,
13.3700,    18.0,
13.4400,    14.0,
13.5100,    19.0,
13.5800,    18.0,
13.6500,    14.0,
13.7200,    23.0,
13.7900,    15.0,
13.8600,    13.0,
13.9300,     8.0,
14.0000,    13.0,
14.0700,    15.0,
14.1400,    18.0,
14.2100,    14.0,
14.2800,     5.0,
14.3500,    12.0,
14.4200,    15.0,
14.4900,    21.0,
14.5600,    15.0,
14.6300,    18.0,
14.7000,    19.0,
14.7700,    16.0,
14.8400,    15.0,
14.9100,    11.0,
14.9800,    13.0,
15.0500,    13.0,
15.1200,     8.0,
15.1900,    10.0,
15.2600,     9.0,
15.3300,    11.0,
15.4000,     9.0,
15.4700,    16.0,
15.5400,     9.0,
15.6100,    14.0,
15.6800,     8.0,
15.7500,    14.0,
15.8200,    10.0,
15.8900,    13.0,
15.9600,    15.0,
16.0300,    12.0,
16.1000,    12.0,
16.1700,    12.0,
16.2400,     9.0,
16.3100,     7.0,
16.3800,     7.0,
16.4500,    15.0,
16.5200,     9.0,
16.5900,     4.0,
16.6600,     8.0,
16.7300,    14.0,
16.8000,    14.0,
16.8700,     8.0,
16.9400,    14.0,
17.0100,    13.0,
17.0800,    14.0,
17.1500,    20.0,
17.2200,    59.0,
17.2900,   152.0,
17.3600,   260.0,
17.4300,   338.0,
17.5000,   208.0,
17.5700,   118.0,
17.6400,    34.0,
17.7100,    11.0,
17.7800,    12.0,
17.8500,    10.0,
17.9200,    12.0,
17.9900,     8.0,
18.0600,     7.0,
18.1300,     8.0,
18.2000,    14.0,
18.2700,     4.0,
18.3400,     8.0,
18.4100,     8.0,
18.4800,     7.0,
18.5500,     7.0,
18.6200,     6.0,
18.6900,     7.0,
18.7600,     7.0,
18.8300,     4.0,
18.9000,    10.0,
18.9700,     7.0,
19.0400,     5.0,
19.1100,     7.0,
19.1800,     5.0,
19.2500,     8.0,
19.3200,     6.0,
19.3900,    11.0,
19.4600,    32.0,
19.5300,    39.0,
19.6000,    57.0,
19.6700,    32.0,
19.7400,    18.0,
19.8100,     8.0,
19.8800,    14.0,
19.9500,    10.0,
20.0200,    16.0,
20.0900,     3.0,
20.1600,     4.0,
20.2300,     4.0,
20.3000,     4.0,
20.3700,     2.0,
20.4400,     3.0,
20.4700,     4.0,
#ENDOFDATA   :