Folder: GrainBound/Data

Note: README.md
# GrainBound
Anna and I are working to create a Python application for GrainBound LLC and GrainBound LLC's clients.

File: GB2(1) (copy).emsa
#FORMAT      : EMSA/MAS Spectral Data File
#VERSION     : 1.0
#TITLE       : GB2(1)
#DATE        : 25-APR-2018
#TIME        : 12:39:44
#OWNER       :
#NPOINTS     : 2048
#NCOLUMNS    : 1
#XUNITS      : keV
#YUNITS      : Intensity
#DATATYPE    : XY
#XPERCHAN    : 0.01
#OFFSET      : 0.000000000
#CHOFFSET    : 0.000000
#SIGNALTYPE  : EDS
#XLABEL      : X-Ray Energy
#YLABEL      : X-Ray Intensity
#BEAMKV   -kV: 200.0
#EMISSION -uA: 0.0000
#PROBECUR -nA: 0.3000
#BEAMDIAM -nm: 0.0
#MAGCAM      : 3000000.0
#OPERMODE    : IMAG
#XTILTSTGE-dg: 5.000
#YTILTSTGE-dg: 0.000
#XPOSITION   : -150.263
#YPOSITION   : -234.725
#ZPOSITION   : -8.055
#ELEVANGLE-dg: 19.12
#AZIMANGLE-dg: 90.00
#SOLIDANGL-sR: 0.7561
#LIVETIME  -s: 180.000
#REALTIME  -s: 195.247
#TPYWIND  -cm: 1.00E-06
#TAUWIND  -cm: 2.00E-06
#TDEADLYR -cm: 1.00E-06
#EDSDET      : SiUTW
#COMMENT     : The following parameters are defined by Thermo Fisher Scientific
##INSTRUMENT : NSS Microanalysis System
##DETNAME    : SDD Detector
##CONTAM     : 0.00E+00
##CONTAMTYPE : NONE
##WORKDIST   : 3.80
##STAGEROT   : 0.000
##SLIDEPOS   : 11.500
##CRYSTMATL  : Si-Drift
##CRYSTAREA  : 100.000
##CRYSTTHICK : 0.450
##WINTYPE    : PARYLENE
##CONTMATL   : SDD_LELMT
##WINDCOAT   : ALUMINUM
##WINDTHICK  : 0.020
##DEADTIME   : 15.247
##TIMECNSTNT : 6400
##EDSBOARDREV: 2
##ZEROWIDTH  : 40.000
##DETECTS    : 1174301
##CONVERTS   : 1058890
##STORES     : 1001061
##ESCPKSREM  : 1
##ZEROPKSREM : 0
##SUMPKSREM  : 1
##ZEROCUTOFF : 0.000
##DETSUBTYPE : 2
##EXPONENT   : 0.000
##LOWEVADJ   : 0.000
##BEAMX      : -1.000
##BEAMY      : -1.000
##CHARGE     : 0.00E+00
##QUANT_DATE : (null)
##QUANT_CHI  : 0.000
##FITTYPE    : 0
##MATRIXCORR : 0
##PEAKLAB    : 0.245000  C Ka  2
##PEAKLAB    : 0.523000  O Ka  2
##PEAKLAB    : 0.704000  Fe La1  2
##PEAKLAB    : 0.775000  Co La1  2
##PEAKLAB    : 1.266000  Mg Ka  2
##PEAKLAB    : 1.487000  Al Ka  2
##PEAKLAB    : 2.288000  Mo La1  2
##PEAKLAB    : 3.684000  Ca Ka  2
##PEAKLAB    : 6.384000  Fe Ka  2
##PEAKLAB    : 6.909000  Co Ka1  2
##PEAKLAB    : 9.251000  Ga Ka1  2
##PEAKLAB    : 17.426  Mo Ka1  2
##PEAKLAB    : 19.577  Mo Kb1  2
##PEAKLAB    : 1.296000  Mg Kb  2
##PEAKLAB    : 1.553000  Al Kb  2
##PEAKLAB    : 1.740000  Si Ka  2
##PEAKLAB    : 1.829000  Si Kb  2
##PEAKLAB    : 0.091000  Si L2,3-M  2
##PEAKLAB    : 4.012000  Ca Kb1  2
##PEAKLAB    : 0.302000  Ca Ll  2
##PEAKLAB    : 0.341000  Ca La1  2
##PEAKLAB    : 0.306000  Ca Ln  2
##PEAKLAB    : 0.344000  Ca Lb1  2
#SPECTRUM    :
0.0000, 31678.0, # Energy (keV), Intensity (counts)
0.0100, 57347.0,
0.0800,   157.0,
0.1500,   158.0,
0.2200,   251.0,
0.2900,   318.0,
0.3600,   423.0,
0.4300,  1010.0,
0.5000, 32901.0,
0.5700,  4396.0,
0.6400,   225.0,
0.7100,   222.0,
0.7800,   206.0,
0.8500,   245.0,
0.9200,   281.0,
0.9900,   277.0,
1.0600,   321.0,
1.1300,   339.0,
1.2000,   333.0,
1.2700,   534.0,
1.3400,   561.0,
1.4100,  4090.0,
1.4800, 54268.0,
1.5500,  6286.0,
1.6200,   369.0,
1.6900,   169.0,
1.7600,   156.0,
1.8300,   133.0,
1.9000,   117.0,
1.9700,   168.0,
2.0400,   153.0,
2.1100,   122.0,
2.1800,   115.0,
2.2500,   267.0,
2.3200,   309.0,
2.3900,   219.0,
2.4600,   156.0,
2.5300,   121.0,
2.6000,   103.0,
2.6700,    95.0,
2.7400,    92.0,
2.8100,   106.0,
2.8800,   100.0,
2.9500,   128.0,
3.0200,   101.0,
3.0900,    95.0,
3.1600,    88.0,
3.2300,    93.0,
3.3000,    82.0,
3.3700,    94.0,
3.4400,    73.0,
3.5100,    86.0,
3.5800,    88.0,
3.6500,   175.0,
3.7200,   148.0,
3.7900,    80.0,
3.8600,    80.0,
3.9300,    71.0,
4.0000,    61.0,
4.0700,    49.0,
4.1400,    60.0,
4.2100,    55.0,
4.2800,    51.0,
4.3500,    58.0,
4.4200,    56.0,
4.4900,    79.0,
4.5600,    56.0,
4.6300,    77.0,
4.7000,    53.0,
4.7700,    66.0,
4.8400,    62.0,
4.9100,    55.0,
4.9800,    60.0,
5.0500,    45.0,
5.1200,    60.0,
5.1900,    64.0,
5.2600,    43.0,
5.3300,    53.0,
5.4000,    56.0,
5.4700,    43.0,
5.5400,    51.0,
5.6100,    56.0,
5.6800,    44.0,
5.7500,    47.0,
5.8200,    42.0,
5.8900,    39.0,
5.9600,    52.0,
6.0300,    43.0,
6.1000,    40.0,
6.1700,    56.0,
6.2400,    45.0,
6.3100,    77.0,
6.3800,   102.0,
6.4500,    86.0,
6.5200,    44.0,
6.5900,    47.0,
6.6600,    42.0,
6.7300,    50.0,
6.8000,    43.0,
6.8700,    87.0,
6.9400,    99.0,
7.0100,    75.0,
7.0800,    56.0,
7.1500,    38.0,
7.2200,    46.0,
7.2900,    39.0,
7.3600,    42.0,
7.4300,    35.0,
7.5000,    38.0,
7.5700,    31.0,
7.6400,    34.0,
7.7100,    31.0,
7.7800,    38.0,
7.8500,    39.0,
7.9200,    32.0,
7.9900,    55.0,
8.0600,    47.0,
8.1300,    33.0,
8.2000,    33.0,
8.2700,    34.0,
8.3400,    29.0,
8.4100,    34.0,
8.4800,    27.0,
8.5500,    36.0,
8.6200,    22.0,
8.6900,    32.0,
8.7600,    26.0,
8.8300,    25.0,
8.9000,    30.0,
8.9700,    25.0,
9.0400,    33.0,
9.1100,    34.0,
9.1800,    46.0,
9.2500,    49.0,
9.3200,    51.0,
9.3900,    29.0,
9.4600,    29.0,
9.5300,    31.0,
9.6000,    33.0,
9.6700,    43.0,
9.7400,    40.0,
9.8100,    34.0,
9.8800,    19.0,
9.9500,    22.0,
10.0200,    17.0,
10.0900,    31.0,
10.1600,    34.0,
10.2300,    25.0,
10.3000,    34.0,
10.3700,    25.0,
10.4400,    36.0,
10.5100,    40.0,
10.5800,    30.0,
10.6500,    31.0,
10.7200,    22.0,
10.7900,    24.0,
10.8600,    13.0,
10.9300,    29.0,
11.0000,    24.0,
11.0700,    27.0,
11.1400,    18.0,
11.2100,    26.0,
11.2800,    34.0,
11.3500,    18.0,
11.4200,    28.0,
11.4900,    29.0,
11.5600,    30.0,
11.6300,    22.0,
11.7000,    20.0,
11.7700,    16.0,
11.8400,    22.0,
11.9100,    20.0,
11.9800,    22.0,
12.0500,    14.0,
12.1200,    18.0,
12.1900,    17.0,
12.2600,    15.0,
12.3300,    17.0,
12.4000,    20.0,
12.4700,    27.0,
12.5400,    28.0,
12.6100,    41.0,
12.6800,    24.0,
12.7500,    25.0,
12.8200,    18.0,
12.8900,    23.0,
12.9600,    10.0,
13.0300,    19.0,
13.1000,    20.0,
13.1700,    16.0,
13.2400,    19.0,
13.3100,    16.0,
13.3800,    21.0,
13.4500,    18.0,
13.5200,    22.0,
13.5900,    13.0,
13.6600,    11.0,
13.7300,    11.0,
13.8000,    12.0,
13.8700,    20.0,
13.9400,     9.0,
14.0100,    11.0,
14.0800,    13.0,
14.1500,    15.0,
14.2200,    14.0,
14.2900,    14.0,
14.3600,    10.0,
14.4300,    17.0,
14.5000,    11.0,
14.5700,    16.0,
14.6400,    15.0,
14.7100,     9.0,
14.7800,    13.0,
14.8500,    11.0,
14.9200,    16.0,
14.9900,    13.0,
15.0600,    20.0,
15.1300,    15.0,
15.2000,    15.0,
15.2700,    19.0,
15.3400,    13.0,
15.4100,    14.0,
15.4800,    18.0,
15.5500,     8.0,
15.6200,     8.0,
15.6900,    12.0,
15.7600,    13.0,
15.8300,    12.0,
15.9000,    10.0,
15.9700,    10.0,
16.0400,    13.0,
16.1100,    11.0,
16.1800,    13.0,
16.2500,     6.0,
16.3200,    17.0,
16.3900,     7.0,
16.4600,     6.0,
16.5300,    18.0,
16.6000,    14.0,
16.6700,    11.0,
16.7400,    10.0,
16.8100,    10.0,
16.8800,    12.0,
16.9500,    12.0,
17.0200,    11.0,
17.0900,    13.0,
17.1600,    29.0,
17.2300,    74.0,
17.3000,   174.0,
17.3700,   306.0,
17.4400,   349.0,
17.5100,   219.0,
17.5800,    93.0,
17.6500,    21.0,
17.7200,     8.0,
17.7900,     8.0,
17.8600,     9.0,
17.9300,     9.0,
18.0000,     5.0,
18.0700,    13.0,
18.1400,     4.0,
18.2100,     7.0,
18.2800,    11.0,
18.3500,     7.0,
18.4200,    10.0,
18.4900,     8.0,
18.5600,     9.0,
18.6300,     3.0,
18.7000,     9.0,
18.7700,     4.0,
18.8400,     9.0,
18.9100,     7.0,
18.9800,     9.0,
19.0500,     8.0,
19.1200,    14.0,
19.1900,     7.0,
19.2600,     4.0,
19.3300,     6.0,
19.4000,    15.0,
19.4700,    34.0,
19.5400,    59.0,
19.6100,    51.0,
19.6800,    31.0,
19.7500,    16.0,
19.8200,     8.0,
19.8900,     6.0,
19.9600,     9.0,
20.0300,    10.0,
20.1000,     3.0,
20.1700,     5.0,
20.2400,     3.0,
20.3100,     3.0,
20.3800,     4.0,
20.4500,     2.0,
20.4700,     4.0,
#ENDOFDATA   :